Folder: adhesion-research/data/xrd

Note: README.md
# adhesion-research

This repo is intended to keep track of changes in files (_especially Julia code_) for the research project of my research team.

## Code

Julia code will be written for the analysis of data.

## Research Paper

The research paper will be written in LaTeX for math typesetting and figure creation.

File: S1.ASC
3.0125 110
3.2375 98
3.4625 91
3.6875 110
3.9125 86
4.1375 68
4.3625 75
4.5875 61
4.8125 51
5.0375 51
5.2625 37
5.4875 47
5.7125 51
5.9375 42
6.1625 44
6.3875 36
6.6125 30
6.8375 40
7.0625 43
7.2875 39
7.5125 27
7.7375 28
7.9625 26
8.1875 34
8.4125 24
8.6375 31
8.8625 40
9.0875 25
9.3125 31
9.5375 29
9.7625 37
9.9875 31
10.2125 26
10.4375 24
10.6625 24
10.8875 25
11.1125 27
11.3375 20
11.5625 28
11.7875 34
12.0125 23
12.2375 20
12.4625 24
12.6875 33
12.9125 32
13.1375 22
13.3625 34
13.5875 24
13.8125 19
14.0375 37
14.2625 29
14.4875 28
14.7125 37
14.9375 38
15.1625 38
15.3875 42
15.6125 47
15.8375 52
16.0625 49
16.2875 45
16.5125 57
16.7375 46
16.9625 41
17.1875 58
17.4125 65
17.6375 59
17.8625 51
18.0875 59
18.3125 47
18.5375 68
18.7625 54
18.9875 63
19.2125 76
19.4375 62
19.6625 94
19.8875 78
20.1125 95
20.3375 69
20.5625 80
20.7875 91
21.0125 94
21.2375 81
21.4625 93
21.6875 100
21.9125 87
22.1375 91
22.3625 118
22.5875 98
22.8125 99
23.0375 103
23.2625 115
23.4875 112
23.7125 91
23.9375 106
24.1625 126
24.3875 111
24.6125 107
24.8375 98
25.0625 90
25.2875 107
25.5125 97
25.7375 113
25.9625 96
26.1875 108
26.4125 84
26.6375 83
26.8625 94
27.0875 94
27.3125 89
27.5375 90
27.7625 93
27.9875 83
28.2125 82
28.4375 102
28.6625 101
28.8875 85
29.1125 91
29.3375 77
29.5625 90
29.7875 88
30.0125 97
30.2375 88
30.4625 92
30.6875 74
30.9125 69
31.1375 70
31.3625 77
31.5875 74
31.8125 78
32.0375 90
32.2625 92
32.4875 93
32.7125 70
32.9375 70
33.1625 77
33.3875 74
33.6125 60
33.8375 47
34.0625 56
34.2875 72
34.5125 62
34.7375 77
34.9625 82
35.1875 61
35.4125 45
35.6375 64
35.8625 61
36.0875 58
36.3125 54
36.5375 63
36.7625 67
36.9875 53
37.2125 53
37.4375 59
37.6625 58
37.8875 45
38.1125 34
38.3375 46
38.5625 41
38.7875 42
39.0125 46
39.2375 52
39.4625 33
39.6875 46
39.9125 41
40.1375 37
40.3625 25
40.5875 43
40.8125 50
41.0375 60
41.2625 38
41.4875 51
41.7125 34
41.9375 43
42.1625 42
42.3875 40
42.6125 39
42.8375 42
43.0625 43
43.2875 50
43.5125 49
43.7375 33
43.9625 62
44.1875 28
44.4125 41
44.6375 48
44.8625 41
45.0875 53
45.3125 36
45.5375 42
45.7625 48
45.9875 35
46.2125 44
46.4375 40
46.6625 42
46.8875 42
47.1125 40
47.3375 46
47.5625 39
47.7875 32
48.0125 35
48.2375 42
48.4625 42
48.6875 35
48.9125 33
49.1375 35
49.3625 40
49.5875 37
49.8125 32
50.0375 34
50.2625 44
50.4875 36
50.7125 32
50.9375 46
51.1625 33
51.3875 42
51.6125 33
51.8375 35
52.0625 44
52.2875 27
52.5125 39
52.7375 33
52.9625 39
53.1875 38
53.4125 35
53.6375 44
53.8625 39
54.0875 46
54.3125 42
54.5375 43
54.7625 43
54.9875 38
55.2125 34
55.4375 54
55.6625 32
55.8875 32
56.1125 36
56.3375 41
56.5625 35
56.7875 45
57.0125 42
57.2375 34
57.4625 39
57.6875 28
57.9125 36
58.1375 35
58.3625 45
58.5875 39
58.8125 27
59.0375 36
59.2625 45
59.4875 45
59.7125 31
59.9375 36
60.1625 30
60.3875 38
60.6125 47
60.8375 38
61.0625 35
61.2875 45
61.5125 39
61.7375 41
61.9625 29
62.1875 38
62.4125 40
62.6375 32
62.8625 38
63.0875 44
63.3125 36
63.5375 35
63.7625 41
63.9875 33
64.2125 34
64.4375 30
64.6625 29
64.8875 39
65.1125 40
65.3375 42
65.5625 46
65.7875 32
66.0125 30
66.2375 40
66.4625 33
66.6875 30
66.9125 41
67.1375 34
67.3625 35
67.5875 37
67.8125 46
68.0375 27
68.2625 38
68.4875 41
68.7125 30
68.9375 36
69.1625 21
69.3875 37
69.6125 33
69.8375 28
69.9625 26

File: S2.csv
3.0125,258
3.2375,239
3.4625,153
3.6875,158
3.9125,120
4.1375,130
4.3625,121
4.5875,89
4.8125,92
5.0375,68
5.2625,72
5.4875,69
5.7125,57
5.9375,60
6.1625,43
6.3875,49
6.6125,44
6.8375,27
7.0625,37
7.2875,30
7.5125,32
7.7375,34
7.9625,32
8.1875,44
8.4125,35
8.6375,31
8.8625,31
9.0875,36
9.3125,38
9.5375,30
9.7625,30
9.9875,28
10.2125,31
10.4375,24
10.6625,16
10.8875,22
11.1125,30
11.3375,30
11.5625,14
11.7875,22
12.0125,24
12.2375,22
12.4625,29
12.6875,37
12.9125,20
13.1375,20
13.3625,26
13.5875,27
13.8125,29
14.0375,28
14.2625,21
14.4875,32
14.7125,26
14.9375,25
15.1625,28
15.3875,43
15.6125,34
15.8375,48
16.0625,45
16.2875,42
16.5125,43
16.7375,39
16.9625,45
17.1875,53
17.4125,45
17.6375,53
17.8625,49
18.0875,53
18.3125,66
18.5375,55
18.7625,62
18.9875,66
19.2125,58
19.4375,75
19.6625,60
19.8875,65
20.1125,62
20.3375,82
20.5625,138
20.7875,88
21.0125,86
21.2375,83
21.4625,80
21.6875,96
21.9125,103
22.1375,95
22.3625,107
22.5875,102
22.8125,106
23.0375,95
23.2625,98
23.4875,91
23.7125,101
23.9375,88
24.1625,94
24.3875,77
24.6125,110
24.8375,84
25.0625,110
25.2875,99
25.5125,103
25.7375,92
25.9625,98
26.1875,100
26.4125,87
26.6375,94
26.8625,79
27.0875,88
27.3125,77
27.5375,84
27.7625,89
27.9875,98
28.2125,93
28.4375,87
28.6625,94
28.8875,101
29.1125,89
29.3375,91
29.5625,94
29.7875,92
30.0125,81
30.2375,87
30.4625,71
30.6875,72
30.9125,84
31.1375,86
31.3625,79
31.5875,86
31.8125,90
32.0375,147
32.2625,122
32.4875,93
32.7125,79
32.9375,74
33.1625,61
33.3875,67
33.6125,81
33.8375,67
34.0625,70
34.2875,60
34.5125,71
34.7375,201
34.9625,149
35.1875,83
35.4125,61
35.6375,52
35.8625,60
36.0875,70
36.3125,90
36.5375,137
36.7625,153
36.9875,102
37.2125,56
37.4375,43
37.6625,51
37.8875,54
38.1125,48
38.3375,39
38.5625,39
38.7875,46
39.0125,48
39.2375,37
39.4625,46
39.6875,39
39.9125,42
40.1375,50
40.3625,33
40.5875,33
40.8125,33
41.0375,38
41.2625,41
41.4875,40
41.7125,37
41.9375,39
42.1625,46
42.3875,41
42.6125,44
42.8375,46
43.0625,43
43.2875,37
43.5125,32
43.7375,32
43.9625,61
44.1875,38
44.4125,37
44.6375,29
44.8625,43
45.0875,30
45.3125,36
45.5375,39
45.7625,37
45.9875,25
46.2125,43
46.4375,42
46.6625,35
46.8875,44
47.1125,39
47.3375,42
47.5625,43
47.7875,54
48.0125,66
48.2375,55
48.4625,29
48.6875,44
48.9125,38
49.1375,25
49.3625,30
49.5875,38
49.8125,30
50.0375,41
50.2625,49
50.4875,36
50.7125,42
50.9375,34
51.1625,39
51.3875,24
51.6125,23
51.8375,44
52.0625,39
52.2875,35
52.5125,35
52.7375,32
52.9625,38
53.1875,33
53.4125,29
53.6375,30
53.8625,38
54.0875,42
54.3125,37
54.5375,33
54.7625,33
54.9875,25
55.2125,32
55.4375,37
55.6625,22
55.8875,40
56.1125,32
56.3375,42
56.5625,30
56.7875,43
57.0125,55
57.2375,48
57.4625,44
57.6875,40
57.9125,28
58.1375,27
58.3625,48
58.5875,31
58.8125,31
59.0375,43
59.2625,34
59.4875,42
59.7125,41
59.9375,40
60.1625,45
60.3875,34
60.6125,36
60.8375,34
61.0625,36
61.2875,41
61.5125,33
61.7375,32
61.9625,33
62.1875,44
62.4125,30
62.6375,39
62.8625,43
63.0875,67
63.3125,54
63.5375,47
63.7625,57
63.9875,40
64.2125,31
64.4375,41
64.6625,47
64.8875,40
65.1125,43
65.3375,40
65.5625,41
65.7875,26
66.0125,37
66.2375,34
66.4625,23
66.6875,25
66.9125,34
67.1375,29
67.3625,37
67.5875,30
67.8125,40
68.0375,38
68.2625,43
68.4875,43
68.7125,42
68.9375,38
69.1625,34
69.3875,42
69.6125,30
69.8375,37
69.9625,22

File: S3.csv
3.0125,150
3.2375,145
3.4625,106
3.6875,98
3.9125,75
4.1375,70
4.3625,63
4.5875,49
4.8125,52
5.0375,55
5.2625,54
5.4875,41
5.7125,43
5.9375,36
6.1625,38
6.3875,39
6.6125,37
6.8375,35
7.0625,30
7.2875,30
7.5125,33
7.7375,28
7.9625,28
8.1875,30
8.4125,26
8.6375,27
8.8625,25
9.0875,26
9.3125,26
9.5375,31
9.7625,28
9.9875,31
10.2125,28
10.4375,24
10.6625,32
10.8875,26
11.1125,18
11.3375,26
11.5625,18
11.7875,30
12.0125,20
12.2375,22
12.4625,22
12.6875,19
12.9125,27
13.1375,27
13.3625,34
13.5875,28
13.8125,20
14.0375,21
14.2625,34
14.4875,27
14.7125,19
14.9375,15
15.1625,25
15.3875,31
15.6125,32
15.8375,28
16.0625,31
16.2875,33
16.5125,40
16.7375,46
16.9625,40
17.1875,43
17.4125,46
17.6375,53
17.8625,47
18.0875,59
18.3125,52
18.5375,61
18.7625,68
18.9875,56
19.2125,58
19.4375,55
19.6625,61
19.8875,70
20.1125,65
20.3375,70
20.5625,69
20.7875,55
21.0125,71
21.2375,84
21.4625,76
21.6875,91
21.9125,90
22.1375,69
22.3625,71
22.5875,87
22.8125,94
23.0375,87
23.2625,78
23.4875,77
23.7125,89
23.9375,89
24.1625,89
24.3875,96
24.6125,91
24.8375,91
25.0625,79
25.2875,77
25.5125,81
25.7375,83
25.9625,88
26.1875,63
26.4125,82
26.6375,87
26.8625,80
27.0875,80
27.3125,84
27.5375,83
27.7625,82
27.9875,69
28.2125,82
28.4375,86
28.6625,100
28.8875,92
29.1125,57
29.3375,82
29.5625,93
29.7875,96
30.0125,83
30.2375,98
30.4625,85
30.6875,83
30.9125,72
31.1375,83
31.3625,72
31.5875,72
31.8125,80
32.0375,134
32.2625,201
32.4875,118
32.7125,65
32.9375,78
33.1625,62
33.3875,69
33.6125,70
33.8375,63
34.0625,75
34.2875,69
34.5125,90
34.7375,261
34.9625,426
35.1875,109
35.4125,64
35.6375,61
35.8625,61
36.0875,62
36.3125,79
36.5375,177
36.7625,345
36.9875,121
37.2125,55
37.4375,49
37.6625,47
37.8875,43
38.1125,45
38.3375,40
38.5625,34
38.7875,45
39.0125,51
39.2375,36
39.4625,40
39.6875,39
39.9125,46
40.1375,33
40.3625,39
40.5875,44
40.8125,45
41.0375,40
41.2625,37
41.4875,33
41.7125,42
41.9375,39
42.1625,30
42.3875,38
42.6125,35
42.8375,39
43.0625,25
43.2875,46
43.5125,40
43.7375,45
43.9625,23
44.1875,35
44.4125,39
44.6375,38
44.8625,40
45.0875,44
45.3125,40
45.5375,33
45.7625,32
45.9875,28
46.2125,33
46.4375,33
46.6625,41
46.8875,38
47.1125,39
47.3375,41
47.5625,38
47.7875,46
48.0125,60
48.2375,44
48.4625,48
48.6875,39
48.9125,40
49.1375,31
49.3625,28
49.5875,39
49.8125,37
50.0375,30
50.2625,26
50.4875,31
50.7125,38
50.9375,31
51.1625,36
51.3875,30
51.6125,32
51.8375,33
52.0625,23
52.2875,36
52.5125,42
52.7375,33
52.9625,23
53.1875,32
53.4125,29
53.6375,39
53.8625,36
54.0875,36
54.3125,25
54.5375,29
54.7625,33
54.9875,32
55.2125,29
55.4375,25
55.6625,31
55.8875,33
56.1125,38
56.3375,49
56.5625,30
56.7875,35
57.0125,54
57.2375,45
57.4625,30
57.6875,24
57.9125,35
58.1375,30
58.3625,29
58.5875,36
58.8125,40
59.0375,40
59.2625,24
59.4875,21
59.7125,35
59.9375,38
60.1625,35
60.3875,28
60.6125,30
60.8375,24
61.0625,43
61.2875,44
61.5125,40
61.7375,36
61.9625,36
62.1875,51
62.4125,37
62.6375,35
62.8625,46
63.0875,67
63.3125,63
63.5375,57
63.7625,47
63.9875,28
64.2125,33
64.4375,40
64.6625,40
64.8875,39
65.1125,33
65.3375,29
65.5625,33
65.7875,34
66.0125,30
66.2375,45
66.4625,43
66.6875,32
66.9125,30
67.1375,39
67.3625,38
67.5875,35
67.8125,36
68.0375,38
68.2625,41
68.4875,40
68.7125,49
68.9375,36
69.1625,36
69.3875,31
69.6125,53
69.8375,49
69.9625,30